File: reg_test/Raman_DFPT/output/COF-1_Raman_solv_DFPT.txt
   0.0000000000000000        0.0000000000000000
   6.51492        7.19484e+63
   13.0298        3.25017e+63
   19.5448        1.80613e+63
   26.0597        1.40062e+63
   32.5746        2.31491e+63
   39.0895        2.54856e+63
   45.6045        1.72342e+63
   52.1194        1.05181e+63
   58.6343        9.3893e+62
   65.1492        1.14797e+63
   71.6642        1.02857e+63
   78.1791        8.96099e+62
   84.694        9.46242e+62
   91.2089        7.96529e+62
   97.7239        5.92048e+62
   104.239        6.15158e+62
   110.754        9.74632e+62
   117.269        1.43005e+63
   123.784        1.45636e+63
   130.298        1.02657e+63
   136.813        6.00499e+62
   143.328        4.81986e+62
   149.843        5.35014e+62
   156.358        4.92779e+62
   162.873        4.59337e+62
   169.388        5.35117e+62
   175.903        5.72336e+62
   182.418        4.28322e+62
   188.933        2.66868e+62
   195.448        2.22758e+62
   201.963        2.81416e+62
   208.478        4.65969e+62
   214.992        6.17198e+62
   221.507        6.54856e+62
   228.022        6.48375e+62
   234.537        7.15921e+62
   241.052        7.12521e+62
   247.567        4.71356e+62
   254.082        2.66919e+62
   260.597        1.8493e+62
   267.112        1.27446e+62
   273.627        1.19567e+62
   280.142        1.1569e+62
   286.657        7.91181e+61
   293.172        5.12729e+61
   299.686        4.26375e+61
   306.201        3.33598e+61
   312.716        2.46514e+61
   319.231        2.23561e+61
   325.746        2.43387e+61
   332.261        2.34507e+61
   338.776        1.87211e+61
   345.291        1.9304e+61
   351.806        2.48125e+61
   358.321        2.47374e+61
   364.836        2.60557e+61
   371.351        2.99406e+61
   377.866        3.07294e+61
   384.38        3.15321e+61
   390.895        2.6501e+61
   397.41        2.31767e+61
   403.925        3.04187e+61
   410.44        4.19123e+61
   416.955        4.74414e+61
   423.47        4.38448e+61
   429.985        3.85815e+61
   436.5        3.28043e+61
   443.015        2.73174e+61
   449.53        2.44894e+61
   456.045        2.79808e+61
   462.56        3.29512e+61
   469.074        3.77345e+61
   475.589        4.58194e+61
   482.104        4.19374e+61
   488.619        2.7169e+61
   495.134        1.96623e+61
   501.649        1.73507e+61
   508.164        1.67544e+61
   514.679        1.60305e+61
   521.194        1.33865e+61
   527.709        1.20768e+61
   534.224        1.28932e+61
   540.739        1.51973e+61
   547.254        1.44532e+61
   553.769        1.03191e+61
   560.283        1.00813e+61
   566.798        1.35082e+61
   573.313        1.44518e+61
   579.828        1.64488e+61
   586.343        2.24737e+61
   592.858        2.86596e+61
   599.373        3.25324e+61
   605.888        4.08988e+61
   612.403        8.63961e+61
   618.918        2.65397e+62
   625.433        4.54056e+62
   631.948        3.64728e+62
   638.463        1.51134e+62
   644.977        5.838e+61
   651.492        3.34793e+61
   658.007        2.70836e+61
   664.522        4.17854e+61
   671.037        8.08011e+61
   677.552        1.76189e+62
   684.067        4.03862e+62
   690.582        4.51987e+62
   697.097        1.87223e+62
   703.612        5.38936e+61
   710.127        6.26638e+61
   716.642        5.5432e+61
   723.157        5.39247e+61
   729.671        4.55261e+61
   736.186        4.93277e+61
   742.701        5.73246e+61
   749.216        9.09791e+61
   755.731        1.65226e+62
   762.246        2.35547e+62
   768.761        3.0684e+62
   775.276        4.5501e+62
   781.791        5.44541e+62
   788.306        4.38448e+62
   794.821        2.65255e+62
   801.336        1.54617e+62
   807.851        1.65409e+62
   814.365        1.8061e+62
   820.88        1.2428e+62
   827.395        8.3636e+61
   833.91        6.93588e+61
   840.425        6.12584e+61
   846.94        5.64863e+61
   853.455        4.74388e+61
   859.97        3.47853e+61
   866.485        2.56335e+61
   873        2.39255e+61
   879.515        2.51644e+61
   886.03        2.1335e+61
   892.545        2.2253e+61
   899.059        2.93072e+61
   905.574        2.89964e+61
   912.089        2.84657e+61
   918.604        2.83334e+61
   925.119        3.45714e+61
   931.634        4.56714e+61
   938.149        4.73976e+61
   944.664        3.96591e+61
   951.179        3.9721e+61
   957.694        3.58837e+61
   964.209        1.09784e+62
   970.724        2.67005e+62
   977.239        2.53526e+62
   983.753        2.15808e+62
   990.268        4.90645e+62
   996.783        7.65571e+62
   1003.3        5.79992e+62
   1009.81        2.24721e+62
   1016.33        1.38422e+62
   1022.84        1.49514e+62
   1029.36        8.92789e+61
   1035.87        5.63896e+61
   1042.39        5.27331e+61
   1048.9        5.7578e+61
   1055.42        6.89636e+61
   1061.93        7.30112e+61
   1068.45        7.42566e+61
   1074.96        4.86988e+61
   1081.48        2.38635e+61
   1087.99        2.98218e+61
   1094.51        4.03161e+61
   1101.02        3.5054e+61
   1107.54        2.57251e+61
   1114.05        2.18482e+61
   1120.57        1.91483e+61
   1127.08        2.46412e+61
   1133.6        3.06441e+61
   1140.11        3.09583e+61
   1146.63        3.06404e+61
   1153.14        3.12122e+61
   1159.66        5.30127e+61
   1166.17        7.83515e+61
   1172.69        9.675e+61
   1179.2        1.09975e+62
   1185.72        9.55734e+61
   1192.23        8.2764e+61
   1198.75        7.16126e+61
   1205.26        4.86628e+61
   1211.78        3.09225e+61
   1218.29        2.95331e+61
   1224.81        3.6455e+61
   1231.32        4.71091e+61
   1237.84        6.94005e+61
   1244.35        9.13705e+61
   1250.87        9.20533e+61
   1257.38        1.04371e+62
   1263.9        1.81184e+62
   1270.41        2.30572e+62
   1276.93        2.6659e+62
   1283.44        3.11452e+62
   1289.95        2.46224e+62
   1296.47        1.84579e+62
   1302.98        2.1531e+62
   1309.5        2.66365e+62
   1316.01        3.28679e+62
   1322.53        4.98999e+62
   1329.04        7.20965e+62
   1335.56        6.44143e+62
   1342.07        3.39298e+62
   1348.59        1.96114e+62
   1355.1        2.06844e+62
   1361.62        2.23908e+62
   1368.13        2.32094e+62
   1374.65        2.39706e+62
   1381.16        1.99812e+62
   1387.68        1.25495e+62
   1394.19        8.5139e+61
   1400.71        7.73533e+61
   1407.22        8.14013e+61
   1413.74        7.66378e+61
   1420.25        7.44895e+61
   1426.77        7.17331e+61
   1433.28        4.8758e+61
   1439.8        3.14592e+61
   1446.31        3.06078e+61
   1452.83        3.55793e+61
   1459.34        4.24241e+61
   1465.86        4.52681e+61
   1472.37        4.88623e+61
   1478.89        5.13101e+61
   1485.4        4.61549e+61
   1491.92        3.37551e+61
   1498.43        2.58317e+61
   1504.95        4.8422e+61
   1511.46        8.7606e+61
   1517.98        1.1074e+62
   1524.49        1.10867e+62
   1531.01        8.73107e+61
   1537.52        7.32546e+61
   1544.04        6.95114e+61
   1550.55        1.30999e+62
   1557.07        2.82529e+62
   1563.58        3.62582e+62
   1570.1        4.05625e+62
   1576.61        8.11775e+62
   1583.13        1.68975e+63
   1589.64        2.08601e+63
   1596.16        1.73695e+63
   1602.67        1.37911e+63
   1609.19        1.02539e+63
   1615.7        6.2624e+62
   1622.22        3.41757e+62
   1628.73        2.41965e+62
   1635.25        2.19087e+62
   1641.76        1.34155e+62
   1648.28        7.42665e+61
   1654.79        7.45476e+61
   1661.31        6.95056e+61
   1667.82        4.88491e+61
   1674.34        4.18824e+61
   1680.85        3.77378e+61
   1687.37        3.07446e+61
   1693.88        2.66376e+61
   1700.4        2.30318e+61
   1706.91        2.09629e+61
   1713.42        2.39207e+61
   1719.94        2.90223e+61
   1726.45        2.81765e+61
   1732.97        2.35774e+61
   1739.48        1.81039e+61
   1746        1.19221e+61
   1752.51        1.02392e+61
   1759.03        1.1708e+61
   1765.54        1.25691e+61
   1772.06        1.04998e+61
   1778.57        8.74028e+60
   1785.09        1.06795e+61
   1791.6        1.1033e+61
   1798.12        1.04824e+61
   1804.63        1.44281e+61
   1811.15        1.90251e+61
   1817.66        1.50403e+61
   1824.18        8.88874e+60
   1830.69        8.58268e+60
   1837.21        7.76375e+60
   1843.72        7.57828e+60
   1850.24        8.95229e+60
   1856.75        6.81348e+60
   1863.27        5.15038e+60
   1869.78        7.00188e+60
   1876.3        6.93225e+60
   1882.81        6.3196e+60
   1889.33        7.64653e+60
   1895.84        7.90814e+60
   1902.36        7.08724e+60
   1908.87        6.16922e+60
   1915.39        5.12486e+60
   1921.9        5.71915e+60
   1928.42        8.42324e+60
   1934.93        9.04717e+60
   1941.45        6.37134e+60
   1947.96        3.8771e+60
   1954.48        3.03127e+60
   1960.99        2.90744e+60
   1967.51        2.81202e+60
   1974.02        3.07824e+60
   1980.54        2.98178e+60
   1987.05        2.65814e+60
   1993.57        2.76282e+60
   2000.08        2.82816e+60
   2006.6        3.27052e+60
   2013.11        3.53949e+60
   2019.63        2.94967e+60
   2026.14        2.72261e+60
   2032.66        2.96885e+60
   2039.17        2.38145e+60
   2045.69        1.68833e+60
   2052.2        2.12611e+60
   2058.72        2.59842e+60
   2065.23        2.93834e+60
   2071.75        2.73634e+60
   2078.26        1.53046e+60
   2084.78        1.08703e+60
   2091.29        1.75165e+60
   2097.81        1.97164e+60
   2104.32        1.56841e+60
   2110.84        1.65656e+60
   2117.35        2.08951e+60
   2123.87        2.3036e+60
   2130.38        2.29663e+60
   2136.89        2.08839e+60
   2143.41        2.16766e+60
   2149.92        2.28101e+60
   2156.44        1.90427e+60
   2162.95        1.88437e+60
   2169.47        2.09755e+60
   2175.98        2.04645e+60
   2182.5        2.56476e+60
   2189.01        2.92762e+60
   2195.53        2.32322e+60
   2202.04        1.7867e+60
   2208.56        1.91305e+60
   2215.07        2.0952e+60
   2221.59        2.0436e+60
   2228.1        2.46706e+60
   2234.62        3.29545e+60
   2241.13        4.40515e+60
   2247.65        4.15495e+60
   2254.16        3.41502e+60
   2260.68        4.27801e+60
   2267.19        3.79449e+60
   2273.71        2.78658e+60
   2280.22        2.51167e+60
   2286.74        1.58138e+60
   2293.25        1.19019e+60
   2299.77        1.50434e+60
   2306.28        1.75586e+60
   2312.8        2.10285e+60
   2319.31        2.55792e+60
   2325.83        2.46696e+60
   2332.34        2.00833e+60
   2338.86        1.93362e+60
   2345.37        2.02369e+60
   2351.89        1.91088e+60
   2358.4        1.70925e+60
   2364.92        1.70174e+60
   2371.43        1.74698e+60
   2377.95        1.82131e+60
   2384.46        2.45937e+60
   2390.98        2.83558e+60
   2397.49        2.15987e+60
   2404.01        1.69173e+60
   2410.52        1.75675e+60
   2417.04        1.83281e+60
   2423.55        1.89739e+60
   2430.07        1.53793e+60
   2436.58        1.36568e+60
   2443.1        1.77493e+60
   2449.61        1.98052e+60
   2456.13        2.5941e+60
   2462.64        3.81095e+60
   2469.16        3.71998e+60
   2475.67        2.55699e+60
   2482.19        2.57288e+60
   2488.7        2.91282e+60
   2495.22        2.46719e+60
   2501.73        2.45753e+60
   2508.25        2.44184e+60
   2514.76        2.07151e+60
   2521.28        2.22151e+60
   2527.79        2.38689e+60
   2534.31        2.25106e+60
   2540.82        2.56121e+60
   2547.34        2.79414e+60
   2553.85        3.13339e+60
   2560.36        4.63506e+60
   2566.88        5.92951e+60
   2573.39        6.12894e+60
   2579.91        6.85914e+60
   2586.42        8.40908e+60
   2592.94        8.70592e+60
   2599.45        7.71631e+60
   2605.97        6.47329e+60
   2612.48        5.00757e+60
   2619        4.02003e+60
   2625.51        3.82807e+60
   2632.03        4.05533e+60
   2638.54        5.3354e+60
   2645.06        7.29793e+60
   2651.57        8.09028e+60
   2658.09        8.18314e+60
   2664.6        8.2011e+60
   2671.12        6.80586e+60
   2677.63        7.02423e+60
   2684.15        8.08081e+60
   2690.66        6.21207e+60
   2697.18        5.22369e+60
   2703.69        6.67885e+60
   2710.21        7.55882e+60
   2716.72        6.2715e+60
   2723.24        4.44337e+60
   2729.75        3.9239e+60
   2736.27        5.42458e+60
   2742.78        6.25618e+60
   2749.3        4.9447e+60
   2755.81        4.68543e+60
   2762.33        5.82032e+60
   2768.84        5.74794e+60
   2775.36        5.50094e+60
   2781.87        5.71135e+60
   2788.39        4.44677e+60
   2794.9        4.39421e+60
   2801.42        5.57176e+60
   2807.93        5.8002e+60
   2814.45        6.9173e+60
   2820.96        8.43532e+60
   2827.48        1.01258e+61
   2833.99        9.58104e+60
   2840.51        7.14361e+60
   2847.02        6.13928e+60
   2853.54        7.06267e+60
   2860.05        1.19111e+61
   2866.57        2.74035e+61
   2873.08        4.78267e+61
   2879.6        4.85499e+61
   2886.11        4.57245e+61
   2892.63        8.0412e+61
   2899.14        1.53662e+62
   2905.66        1.84029e+62
   2912.17        1.30164e+62
   2918.69        1.29898e+62
   2925.2        2.14258e+62
   2931.72        2.18812e+62
   2938.23        1.36901e+62
   2944.75        7.95593e+61
   2951.26        5.60894e+61
   2957.78        3.9115e+61
   2964.29        2.42529e+61
   2970.81        2.18652e+61
   2977.32        3.46621e+61
   2983.83        3.84696e+61
   2990.35        3.28249e+61
   2996.86        3.92699e+61
   3003.38        4.62873e+61
   3009.89        5.99275e+61
   3016.41        7.78645e+61
   3022.92        7.34645e+61
   3029.44        8.66648e+61
   3035.95        1.11246e+62
   3042.47        8.78109e+61
   3048.98        5.15501e+61
   3055.5        3.79243e+61
   3062.01        3.33715e+61
   3068.53        3.15029e+61
   3075.04        2.78816e+61
   3081.56        3.96034e+61
   3088.07        6.42118e+61
   3094.59        1.00738e+62
   3101.1        1.43602e+62
   3107.62        1.66254e+62
   3114.13        1.79428e+62
   3120.65        1.53959e+62
   3127.16        1.25434e+62
   3133.68        1.23602e+62
   3140.19        7.61698e+61
   3146.71        3.16925e+61
   3153.22        3.57602e+61
   3159.74        4.29994e+61
   3166.25        3.29782e+61
   3172.77        1.60586e+61
   3179.28        9.84198e+60
   3185.8        1.12762e+61
   3192.31        1.24724e+61
   3198.83        9.89927e+60
   3205.34        6.17218e+60
   3211.86        5.24734e+60
   3218.37        5.05708e+60
   3224.89        4.46969e+60
   3231.4        3.70922e+60
   3237.92        2.78798e+60
   3244.43        1.84255e+60
   3250.95        1.49855e+60
   3257.46        1.5438e+60
   3263.98        1.50036e+60
   3270.49        1.21558e+60
   3277.01        1.11237e+60
   3283.52        1.0223e+60
   3290.04        1.13485e+60
   3296.55        1.47386e+60
   3303.07        1.318e+60
   3309.58        1.26767e+60
   3316.1        1.25163e+60
   3322.61        8.43686e+59
   3329.13        7.94439e+59
   3335.64        8.30572e+59
   3342.16        6.93321e+59
   3348.67        5.80215e+59
   3355.19        5.48169e+59
   3361.7        6.04629e+59
   3368.22        5.82689e+59
   3374.73        5.48411e+59
   3381.25        5.9447e+59
   3387.76        5.41377e+59
   3394.28        4.79173e+59
   3400.79        6.36033e+59
   3407.31        6.39413e+59
   3413.82        4.42549e+59
   3420.33        3.34364e+59
   3426.85        3.00434e+59
   3433.36        3.08905e+59
   3439.88        3.08108e+59
   3446.39        2.67483e+59
   3452.91        2.66726e+59
   3459.42        2.94597e+59
   3465.94        3.25054e+59
   3472.45        3.99813e+59
   3478.97        3.88847e+59
   3485.48        3.62552e+59
   3492        4.26318e+59
   3498.51        4.50786e+59
   3505.03        3.95834e+59
   3511.54        3.44702e+59
   3518.06        3.35632e+59
   3524.57        3.16216e+59
   3531.09        2.96138e+59
   3537.6        2.84682e+59
   3544.12        2.43857e+59
   3550.63        2.13532e+59
   3557.15        1.97316e+59
   3563.66        1.91461e+59
   3570.18        2.32584e+59
   3576.69        2.32537e+59
   3583.21        1.79745e+59
   3589.72        1.47515e+59
   3596.24        1.53979e+59
   3602.75        1.6337e+59
   3609.27        1.25892e+59
   3615.78        1.053e+59
   3622.3        1.46493e+59
   3628.81        1.79197e+59
   3635.33        1.80366e+59
   3641.84        1.57245e+59
   3648.36        1.26217e+59
   3654.87        1.25318e+59
   3661.39        1.16148e+59
   3667.9        1.20677e+59
   3674.42        1.71058e+59
   3680.93        1.65712e+59
   3687.45        1.12131e+59
   3693.96        1.07822e+59
   3700.48        1.13064e+59
   3706.99        9.50389e+58
   3713.51        8.63568e+58
   3720.02        1.02547e+59
   3726.54        1.32403e+59
   3733.05        1.45426e+59
   3739.57        1.31765e+59
   3746.08        1.10559e+59
   3752.6        1.01956e+59
   3759.11        1.17543e+59
   3765.63        1.20613e+59
   3772.14        1.18852e+59
   3778.66        1.33349e+59
   3785.17        1.04544e+59
   3791.69        7.70618e+58
   3798.2        1.03351e+59
   3804.72        1.21436e+59
   3811.23        1.04765e+59
   3817.75        1.08773e+59
   3824.26        1.19483e+59
   3830.78        1.09748e+59
   3837.29        1.09767e+59
   3843.8        1.09057e+59
   3850.32        1.14584e+59
   3856.83        1.04309e+59
   3863.35        1.00477e+59
   3869.86        1.1805e+59
   3876.38        1.16942e+59
   3882.89        1.26156e+59
   3889.41        1.28034e+59
   3895.92        1.12999e+59
   3902.44        1.13473e+59
   3908.95        1.17827e+59
   3915.47        1.33543e+59
   3921.98        1.86537e+59
   3928.5        2.38236e+59
   3935.01        2.5583e+59
   3941.53        2.35523e+59
   3948.04        2.10356e+59
   3954.56        2.27226e+59
   3961.07        2.11079e+59
   3967.59        1.4943e+59
   3974.1        1.14851e+59
   3980.62        1.10906e+59
   3987.13        1.31494e+59
   3993.65        1.47385e+59
   4000.16        1.41265e+59
   4006.68        1.15194e+59
   4013.19        8.78621e+58
   4019.71        9.25201e+58
   4026.22        1.09687e+59
   4032.74        1.435e+59
   4039.25        1.68535e+59
   4045.77        1.46949e+59
   4052.28        1.4267e+59
   4058.8        1.47368e+59
   4065.31        1.34295e+59
   4071.83        1.66986e+59
   4078.34        1.99974e+59
   4084.86        1.64683e+59
   4091.37        1.29102e+59
   4097.89        1.3149e+59
   4104.4        1.33791e+59
   4110.92        1.2232e+59
   4117.43        1.17063e+59
   4123.95        1.43431e+59
   4130.46        1.66068e+59
   4136.98        1.2903e+59
   4143.49        9.02967e+58
   4150.01        9.48159e+58
   4156.52        8.94039e+58
   4163.04        7.84294e+58
   4169.55        8.77525e+58
   4176.07        1.0721e+59
   4182.58        1.32137e+59
   4189.1        1.57072e+59
   4195.61        1.70608e+59
   4202.13        1.43858e+59
   4208.64        1.15773e+59
   4215.16        1.33756e+59
   4221.67        1.44904e+59
   4228.19        1.09942e+59
   4234.7        7.82352e+58
   4241.22        9.72582e+58
   4247.73        1.17871e+59
   4254.25        1.06811e+59
   4260.76        9.84486e+58
   4267.27        1.08819e+59
   4273.79        1.17553e+59
   4280.3        1.10823e+59
   4286.82        1.07537e+59
   4293.33        1.1398e+59
   4299.85        9.88787e+58
   4306.36        6.93537e+58
   4312.88        6.39817e+58
   4319.39        7.91071e+58
   4325.91        1.0768e+59
   4332.42        1.44457e+59
   4338.94        1.57852e+59
   4345.45        1.39548e+59
   4351.97        1.09209e+59
   4358.48        8.57291e+58
   4365        8.63513e+58
   4371.51        9.06045e+58
   4378.03        8.77711e+58
   4384.54        9.9863e+58
   4391.06        1.10444e+59
   4397.57        9.55966e+58
   4404.09        7.52251e+58
   4410.6        6.53738e+58
   4417.12        6.07431e+58
   4423.63        5.46474e+58
   4430.15        5.91852e+58
   4436.66        6.93941e+58
   4443.18        6.57947e+58
   4449.69        6.22029e+58
   4456.21        5.70454e+58
   4462.72        4.92776e+58
   4469.24        4.49538e+58
   4475.75        4.4713e+58
   4482.27        4.57603e+58
   4488.78        4.46076e+58
   4495.3        4.35933e+58
   4501.81        4.7533e+58
   4508.33        4.54397e+58
   4514.84        2.89677e+58
   4521.36        1.90216e+58
   4527.87        2.31137e+58
   4534.39        2.72382e+58
   4540.9        2.43636e+58
   4547.42        2.08689e+58
   4553.93        2.04889e+58
   4560.45        2.4191e+58
   4566.96        2.50905e+58
   4573.48        2.1083e+58
   4579.99        2.44963e+58
   4586.51        2.83758e+58
   4593.02        2.54676e+58
   4599.54        2.31212e+58
   4606.05        2.53502e+58
   4612.57        2.83776e+58
   4619.08        2.17411e+58
   4625.6        1.36587e+58
   4632.11        1.79685e+58
   4638.63        2.50798e+58
   4645.14        1.90406e+58
   4651.66        1.16002e+58
   4658.17        1.28621e+58
   4664.69        1.30726e+58
   4671.2        1.32866e+58
   4677.72        1.41663e+58
   4684.23        1.32451e+58
   4690.74        1.58329e+58
   4697.26        2.33912e+58
   4703.77        2.25267e+58
   4710.29        1.56531e+58
   4716.8        1.71054e+58
   4723.32        1.78732e+58
   4729.83        1.60306e+58
   4736.35        1.47736e+58
   4742.86        1.05256e+58
   4749.38        8.60785e+57
   4755.89        8.82802e+57
   4762.41        9.21507e+57
   4768.92        1.03133e+58
   4775.44        9.92427e+57
   4781.95        8.20026e+57
   4788.47        6.01945e+57
   4794.98        5.79359e+57
   4801.5        7.17823e+57
   4808.01        6.16951e+57
   4814.53        5.72799e+57
   4821.04        5.38052e+57
   4827.56        3.87488e+57
   4834.07        4.93102e+57
   4840.59        6.01746e+57
   4847.1        8.77185e+57
   4853.62        1.06394e+58
   4860.13        8.47666e+57
   4866.65        8.67238e+57
   4873.16        8.85726e+57
   4879.68        7.27759e+57
   4886.19        5.77579e+57
   4892.71        4.65833e+57
   4899.22        3.53786e+57
   4905.74        3.29068e+57
   4912.25        5.31896e+57
   4918.77        5.4269e+57
   4925.28        3.76609e+57
   4931.8        3.81379e+57
   4938.31        4.21815e+57
   4944.83        3.79437e+57
   4951.34        3.36612e+57
   4957.86        3.13938e+57
   4964.37        3.29432e+57
   4970.89        3.39067e+57
   4977.4        3.84166e+57
   4983.92        6.36332e+57
   4990.43        8.00613e+57
   4996.95        5.9336e+57