File: reg_test/Raman_Berry/output/COF-1_Raman_sc_Berry.txt
   0.0000000000000000        0.0000000000000000
   6.51492        0.0721335
   13.0298        0.0188645
   19.5448        0.00649888
   26.0597        0.0108421
   32.5746        0.0144946
   39.0895        0.0107088
   45.6045        0.00763772
   52.1194        0.0056611
   58.6343        0.00372407
   65.1492        0.00325026
   71.6642        0.00392702
   78.1791        0.00484559
   84.694        0.00583567
   91.2089        0.0063647
   97.7239        0.00516936
   104.239        0.00492116
   110.754        0.00571305
   117.269        0.00527985
   123.784        0.00411966
   130.298        0.00326945
   136.813        0.00273406
   143.328        0.0021726
   149.843        0.00231983
   156.358        0.00285961
   162.873        0.00298042
   169.388        0.00281877
   175.903        0.00264994
   182.418        0.00217766
   188.933        0.00161701
   195.448        0.00168522
   201.963        0.00190764
   208.478        0.0017677
   214.992        0.00233953
   221.507        0.00493174
   228.022        0.00718944
   234.537        0.00648919
   241.052        0.00460911
   247.567        0.0031222
   254.082        0.00218728
   260.597        0.00160302
   267.112        0.00114599
   273.627        0.00101705
   280.142        0.000909857
   286.657        0.000848214
   293.172        0.000881581
   299.686        0.000736818
   306.201        0.000506335
   312.716        0.000438435
   319.231        0.000608929
   325.746        0.000744604
   332.261        0.000555419
   338.776        0.000337332
   345.291        0.000348403
   351.806        0.000361583
   358.321        0.000354074
   364.836        0.000443564
   371.351        0.0005729
   377.866        0.000561156
   384.38        0.000371374
   390.895        0.000371813
   397.41        0.000552964
   403.925        0.000585195
   410.44        0.000512026
   416.955        0.000501905
   423.47        0.000603838
   429.985        0.000721738
   436.5        0.000716653
   443.015        0.00071151
   449.53        0.000782677
   456.045        0.000708202
   462.56        0.000589918
   469.074        0.000538686
   475.589        0.000423643
   482.104        0.000439572
   488.619        0.00054741
   495.134        0.000559593
   501.649        0.000634947
   508.164        0.000703659
   514.679        0.000646968
   521.194        0.00050072
   527.709        0.000451938
   534.224        0.000517796
   540.739        0.000501365
   547.254        0.000534932
   553.769        0.00057143
   560.283        0.000489546
   566.798        0.000458591
   573.313        0.000560409
   579.828        0.000704598
   586.343        0.000869506
   592.858        0.000853679
   599.373        0.000752862
   605.888        0.000874497
   612.403        0.00119094
   618.918        0.00166915
   625.433        0.00179055
   631.948        0.00167011
   638.463        0.00149496
   644.977        0.000988171
   651.492        0.000806846
   658.007        0.00120294
   664.522        0.0014764
   671.037        0.00132546
   677.552        0.00108965
   684.067        0.00118382
   690.582        0.00136655
   697.097        0.00114878
   703.612        0.000947161
   710.127        0.000847773
   716.642        0.000748912
   723.157        0.000836847
   729.671        0.000828724
   736.186        0.000754254
   742.701        0.000811328
   749.216        0.00114383
   755.731        0.0017826
   762.246        0.00261917
   768.761        0.00298318
   775.276        0.00268254
   781.791        0.00279786
   788.306        0.00267847
   794.821        0.00163463
   801.336        0.00106442
   807.851        0.000980116
   814.365        0.00078541
   820.88        0.000805914
   827.395        0.000884667
   833.91        0.000864757
   840.425        0.000824911
   846.94        0.000709126
   853.455        0.000699738
   859.97        0.000966151
   866.485        0.0012626
   873        0.00130574
   879.515        0.00100624
   886.03        0.000831591
   892.545        0.000862993
   899.059        0.000751465
   905.574        0.000669509
   912.089        0.000861333
   918.604        0.00109435
   925.119        0.00106375
   931.634        0.000940193
   938.149        0.000820645
   944.664        0.000866856
   951.179        0.00109824
   957.694        0.00120942
   964.209        0.00128857
   970.724        0.00148385
   977.239        0.00215327
   983.753        0.00268722
   990.268        0.00376866
   996.783        0.00616653
   1003.3        0.00613902
   1009.81        0.00351169
   1016.33        0.00162803
   1022.84        0.00108459
   1029.36        0.00129145
   1035.87        0.00146277
   1042.39        0.00154113
   1048.9        0.00159281
   1055.42        0.00140523
   1061.93        0.00129441
   1068.45        0.00129711
   1074.96        0.00112666
   1081.48        0.000967379
   1087.99        0.000922119
   1094.51        0.000892909
   1101.02        0.000873431
   1107.54        0.000959179
   1114.05        0.000957429
   1120.57        0.000841821
   1127.08        0.000899311
   1133.6        0.00085968
   1140.11        0.000820427
   1146.63        0.00106842
   1153.14        0.00127672
   1159.66        0.00117441
   1166.17        0.00119737
   1172.69        0.0016699
   1179.2        0.00154317
   1185.72        0.00103124
   1192.23        0.000967371
   1198.75        0.000934493
   1205.26        0.00092482
   1211.78        0.00106957
   1218.29        0.00137243
   1224.81        0.00166372
   1231.32        0.00166975
   1237.84        0.00133765
   1244.35        0.001029
   1250.87        0.00117182
   1257.38        0.00146306
   1263.9        0.00164426
   1270.41        0.00192019
   1276.93        0.00268924
   1283.44        0.00365835
   1289.95        0.00332652
   1296.47        0.00232308
   1302.98        0.00252324
   1309.5        0.00434972
   1316.01        0.00530441
   1322.53        0.00422187
   1329.04        0.00500346
   1335.56        0.00662028
   1342.07        0.00533178
   1348.59        0.00325109
   1355.1        0.00250173
   1361.62        0.00230934
   1368.13        0.00255947
   1374.65        0.00271736
   1381.16        0.00208478
   1387.68        0.00141197
   1394.19        0.000956531
   1400.71        0.000973539
   1407.22        0.0013972
   1413.74        0.00136866
   1420.25        0.00108787
   1426.77        0.00107888
   1433.28        0.000962747
   1439.8        0.000887658
   1446.31        0.00101965
   1452.83        0.000920249
   1459.34        0.00103118
   1465.86        0.00131574
   1472.37        0.00135298
   1478.89        0.00149671
   1485.4        0.0015634
   1491.92        0.00125004
   1498.43        0.00108179
   1504.95        0.00135935
   1511.46        0.00179498
   1517.98        0.00199225
   1524.49        0.001929
   1531.01        0.00187155
   1537.52        0.00160944
   1544.04        0.00200641
   1550.55        0.00309258
   1557.07        0.00355818
   1563.58        0.00442584
   1570.1        0.00530061
   1576.61        0.00616848
   1583.13        0.00765803
   1589.64        0.00896122
   1596.16        0.010689
   1602.67        0.0111445
   1609.19        0.00940219
   1615.7        0.00680969
   1622.22        0.00434264
   1628.73        0.00281767
   1635.25        0.00273203
   1641.76        0.00318968
   1648.28        0.0021951
   1654.79        0.00113495
   1661.31        0.00131004
   1667.82        0.00142933
   1674.34        0.00126173
   1680.85        0.00111306
   1687.37        0.00108809
   1693.88        0.00113378
   1700.4        0.0011954
   1706.91        0.00115177
   1713.42        0.000838804
   1719.94        0.000688265
   1726.45        0.000929076
   1732.97        0.00115364
   1739.48        0.00117656
   1746        0.00134132
   1752.51        0.00134929
   1759.03        0.00110818
   1765.54        0.00098462
   1772.06        0.000964091
   1778.57        0.001072
   1785.09        0.00121862
   1791.6        0.00118166
   1798.12        0.000944898
   1804.63        0.000763775
   1811.15        0.000737052
   1817.66        0.000781255
   1824.18        0.000734231
   1830.69        0.000623284
   1837.21        0.000581115
   1843.72        0.000573909
   1850.24        0.000689612
   1856.75        0.000891476
   1863.27        0.000792164
   1869.78        0.000599098
   1876.3        0.000858623
   1882.81        0.0012007
   1889.33        0.00108162
   1895.84        0.000913939
   1902.36        0.00110002
   1908.87        0.00117237
   1915.39        0.00102068
   1921.9        0.00100868
   1928.42        0.00112319
   1934.93        0.00111176
   1941.45        0.000923188
   1947.96        0.000808293
   1954.48        0.000866888
   1960.99        0.000791448
   1967.51        0.000596312
   1974.02        0.000626653
   1980.54        0.000752747
   1987.05        0.000825583
   1993.57        0.00105255
   2000.08        0.00123177
   2006.6        0.000990814
   2013.11        0.000651361
   2019.63        0.000558794
   2026.14        0.000582724
   2032.66        0.000658397
   2039.17        0.000745292
   2045.69        0.000783608
   2052.2        0.000754943
   2058.72        0.000767314
   2065.23        0.000901227
   2071.75        0.000834888
   2078.26        0.000684846
   2084.78        0.000831701
   2091.29        0.00098118
   2097.81        0.000788637
   2104.32        0.000728486
   2110.84        0.00109571
   2117.35        0.00111316
   2123.87        0.000684549
   2130.38        0.000601763
   2136.89        0.0007859
   2143.41        0.000792036
   2149.92        0.00076551
   2156.44        0.000863175
   2162.95        0.000823949
   2169.47        0.000865568
   2175.98        0.00108263
   2182.5        0.000925896
   2189.01        0.000716107
   2195.53        0.000698383
   2202.04        0.000666906
   2208.56        0.000721175
   2215.07        0.000703617
   2221.59        0.000798548
   2228.1        0.00109556
   2234.62        0.00119883
   2241.13        0.00102362
   2247.65        0.000813871
   2254.16        0.000787879
   2260.68        0.000697922
   2267.19        0.000537268
   2273.71        0.000655967
   2280.22        0.00101914
   2286.74        0.00117952
   2293.25        0.000920005
   2299.77        0.000760023
   2306.28        0.000871374
   2312.8        0.000858414
   2319.31        0.000789653
   2325.83        0.000897636
   2332.34        0.000943663
   2338.86        0.000856443
   2345.37        0.000826596
   2351.89        0.00077249
   2358.4        0.000590324
   2364.92        0.000641676
   2371.43        0.00106251
   2377.95        0.00120707
   2384.46        0.00124299
   2390.98        0.00117389
   2397.49        0.000840507
   2404.01        0.000922938
   2410.52        0.0010027
   2417.04        0.000807711
   2423.55        0.000806071
   2430.07        0.000839318
   2436.58        0.000745859
   2443.1        0.000645
   2449.61        0.000685218
   2456.13        0.00078507
   2462.64        0.000798689
   2469.16        0.000963818
   2475.67        0.00117832
   2482.19        0.00106526
   2488.7        0.000918831
   2495.22        0.000992956
   2501.73        0.000991239
   2508.25        0.000932055
   2514.76        0.000874892
   2521.28        0.000723081
   2527.79        0.000769875
   2534.31        0.000838398
   2540.82        0.000691738
   2547.34        0.000719279
   2553.85        0.000809784
   2560.36        0.00068047
   2566.88        0.000581114
   2573.39        0.000745146
   2579.91        0.00104775
   2586.42        0.00105381
   2592.94        0.000896582
   2599.45        0.000991907
   2605.97        0.000995864
   2612.48        0.000688728
   2619        0.000502275
   2625.51        0.000667426
   2632.03        0.000941866
   2638.54        0.000918175
   2645.06        0.000807922
   2651.57        0.00103126
   2658.09        0.00111665
   2664.6        0.000901445
   2671.12        0.000836812
   2677.63        0.00100478
   2684.15        0.00105903
   2690.66        0.000824315
   2697.18        0.000557728
   2703.69        0.000547158
   2710.21        0.000612953
   2716.72        0.000570475
   2723.24        0.000588421
   2729.75        0.000771453
   2736.27        0.00106996
   2742.78        0.0010082
   2749.3        0.000665167
   2755.81        0.000603871
   2762.33        0.000759798
   2768.84        0.000749535
   2775.36        0.000594393
   2781.87        0.0006543
   2788.39        0.000808705
   2794.9        0.000821204
   2801.42        0.000678026
   2807.93        0.000615875
   2814.45        0.000725016
   2820.96        0.000624335
   2827.48        0.000451329
   2833.99        0.000557628
   2840.51        0.000722882
   2847.02        0.00074052
   2853.54        0.000701348
   2860.05        0.000777643
   2866.57        0.00099833
   2873.08        0.00106281
   2879.6        0.000872529
   2886.11        0.000694288
   2892.63        0.000654685
   2899.14        0.000615333
   2905.66        0.000631328
   2912.17        0.000939788
   2918.69        0.00108595
   2925.2        0.000919262
   2931.72        0.00086392
   2938.23        0.000802152
   2944.75        0.000762049
   2951.26        0.000775946
   2957.78        0.000642855
   2964.29        0.000500241
   2970.81        0.000533029
   2977.32        0.000568854
   2983.83        0.000511884
   2990.35        0.000568829
   2996.86        0.000610872
   3003.38        0.00076579
   3009.89        0.000907475
   3016.41        0.000719771
   3022.92        0.00069175
   3029.44        0.000675858
   3035.95        0.000557481
   3042.47        0.000597252
   3048.98        0.000607319
   3055.5        0.000680939
   3062.01        0.000839802
   3068.53        0.000884236
   3075.04        0.000855106
   3081.56        0.000933834
   3088.07        0.00120418
   3094.59        0.00136959
   3101.1        0.00132845
   3107.62        0.00141449
   3114.13        0.00148349
   3120.65        0.00134502
   3127.16        0.00119619
   3133.68        0.000939353
   3140.19        0.000624587
   3146.71        0.000494815
   3153.22        0.000526121
   3159.74        0.000591496
   3166.25        0.000783401
   3172.77        0.000988652
   3179.28        0.000941448
   3185.8        0.000968813
   3192.31        0.000916814
   3198.83        0.000711493
   3205.34        0.000687664
   3211.86        0.000730378
   3218.37        0.000727757
   3224.89        0.00065673
   3231.4        0.00069688
   3237.92        0.000719351
   3244.43        0.000597769
   3250.95        0.000647652
   3257.46        0.000776804
   3263.98        0.000809536
   3270.49        0.00097525
   3277.01        0.00104802
   3283.52        0.000812512
   3290.04        0.000560425
   3296.55        0.000474514
   3303.07        0.000582777
   3309.58        0.000604993
   3316.1        0.000456016
   3322.61        0.000468598
   3329.13        0.000636759
   3335.64        0.000705492
   3342.16        0.000747627
   3348.67        0.000728152
   3355.19        0.000580032
   3361.7        0.000548661
   3368.22        0.000697084
   3374.73        0.000707354
   3381.25        0.000500003
   3387.76        0.000458585
   3394.28        0.000564771
   3400.79        0.000657704
   3407.31        0.000675103
   3413.82        0.000499033
   3420.33        0.00041454
   3426.85        0.000480604
   3433.36        0.000500123
   3439.88        0.000488613
   3446.39        0.000564699
   3452.91        0.000838393
   3459.42        0.000889871
   3465.94        0.00070976
   3472.45        0.000719446
   3478.97        0.000695214
   3485.48        0.000619861
   3492        0.000537041
   3498.51        0.000440032
   3505.03        0.000480787
   3511.54        0.000467268
   3518.06        0.000407128
   3524.57        0.000566046
   3531.09        0.000777743
   3537.6        0.000661376
   3544.12        0.000496046
   3550.63        0.000534338
   3557.15        0.000589104
   3563.66        0.000604087
   3570.18        0.000544613
   3576.69        0.000536746
   3583.21        0.000565863
   3589.72        0.000622222
   3596.24        0.000909714
   3602.75        0.00102163
   3609.27        0.000836856
   3615.78        0.000759324
   3622.3        0.000637667
   3628.81        0.000504597
   3635.33        0.000611042
   3641.84        0.000802807
   3648.36        0.000794965
   3654.87        0.000747935
   3661.39        0.000838554
   3667.9        0.000824547
   3674.42        0.000701719
   3680.93        0.000619472
   3687.45        0.000560181
   3693.96        0.000543991
   3700.48        0.000544097
   3706.99        0.000537413
   3713.51        0.000536607
   3720.02        0.000493261
   3726.54        0.000485658
   3733.05        0.000550719
   3739.57        0.000539997
   3746.08        0.000455339
   3752.6        0.00044477
   3759.11        0.00047612
   3765.63        0.000465914
   3772.14        0.000438045
   3778.66        0.000457031
   3785.17        0.000494844
   3791.69        0.000454624
   3798.2        0.000331687
   3804.72        0.000301166
   3811.23        0.000415205
   3817.75        0.00053032
   3824.26        0.000520073
   3830.78        0.000376703
   3837.29        0.000352436
   3843.8        0.000498035
   3850.32        0.000562128
   3856.83        0.000476115
   3863.35        0.000435259
   3869.86        0.000546344
   3876.38        0.000556273
   3882.89        0.000437063
   3889.41        0.000378565
   3895.92        0.000406323
   3902.44        0.000482359
   3908.95        0.000487263
   3915.47        0.000469754
   3921.98        0.000430239
   3928.5        0.000324796
   3935.01        0.000331146
   3941.53        0.000495492
   3948.04        0.000556314
   3954.56        0.000454568
   3961.07        0.000383328
   3967.59        0.000349112
   3974.1        0.000365366
   3980.62        0.000413368
   3987.13        0.00042036
   3993.65        0.000402629
   4000.16        0.000426027
   4006.68        0.000420289
   4013.19        0.000317206
   4019.71        0.000371472
   4026.22        0.00058904
   4032.74        0.000635187
   4039.25        0.000454449
   4045.77        0.000321591
   4052.28        0.00029955
   4058.8        0.000258824
   4065.31        0.000283065
   4071.83        0.000357606
   4078.34        0.000386373
   4084.86        0.000364608
   4091.37        0.00035531
   4097.89        0.000420885
   4104.4        0.000444078
   4110.92        0.000407817
   4117.43        0.000353954
   4123.95        0.000371125
   4130.46        0.000525556
   4136.98        0.000542588
   4143.49        0.000427125
   4150.01        0.000449831
   4156.52        0.00052148
   4163.04        0.000567681
   4169.55        0.0006127
   4176.07        0.000505563
   4182.58        0.000389269
   4189.1        0.000402224
   4195.61        0.000410699
   4202.13        0.000444005
   4208.64        0.000436855
   4215.16        0.000349506
   4221.67        0.000388472
   4228.19        0.000567836
   4234.7        0.000600869
   4241.22        0.000448097
   4247.73        0.000458438
   4254.25        0.000605829
   4260.76        0.000540659
   4267.27        0.000391786
   4273.79        0.000437638
   4280.3        0.000494532
   4286.82        0.000486483
   4293.33        0.000580016
   4299.85        0.000638771
   4306.36        0.000583387
   4312.88        0.000463258
   4319.39        0.000333754
   4325.91        0.000294019
   4332.42        0.000371767
   4338.94        0.000430472
   4345.45        0.000408976
   4351.97        0.000501621
   4358.48        0.000689723
   4365        0.000696196
   4371.51        0.000556756
   4378.03        0.000488259
   4384.54        0.000403813
   4391.06        0.000283996
   4397.57        0.000215979
   4404.09        0.000186548
   4410.6        0.000226083
   4417.12        0.000309606
   4423.63        0.000322289
   4430.15        0.000260678
   4436.66        0.000286978
   4443.18        0.000489414
   4449.69        0.000555316
   4456.21        0.000371928
   4462.72        0.000262301
   4469.24        0.000249245
   4475.75        0.000290622
   4482.27        0.000362674
   4488.78        0.000364987
   4495.3        0.000394198
   4501.81        0.000454529
   4508.33        0.000421743
   4514.84        0.000313414
   4521.36        0.000225549
   4527.87        0.000237211
   4534.39        0.000325704
   4540.9        0.000425905
   4547.42        0.000455567
   4553.93        0.000333405
   4560.45        0.000215907
   4566.96        0.000190698
   4573.48        0.000208214
   4579.99        0.000267799
   4586.51        0.00028293
   4593.02        0.000276592
   4599.54        0.000318489
   4606.05        0.000315844
   4612.57        0.00026252
   4619.08        0.000265739
   4625.6        0.000350412
   4632.11        0.000424716
   4638.63        0.000466887
   4645.14        0.000458556
   4651.66        0.000303935
   4658.17        0.000194302
   4664.69        0.000215623
   4671.2        0.000266367
   4677.72        0.000286689
   4684.23        0.00019134
   4690.74        0.000186595
   4697.26        0.000375745
   4703.77        0.000441481
   4710.29        0.000301595
   4716.8        0.000206183
   4723.32        0.000222206
   4729.83        0.000270453
   4736.35        0.000324292
   4742.86        0.000374741
   4749.38        0.000370255
   4755.89        0.000273204
   4762.41        0.000180073
   4768.92        0.000264759
   4775.44        0.00044231
   4781.95        0.000403821
   4788.47        0.000258479
   4794.98        0.000241914
   4801.5        0.000390044
   4808.01        0.000500784
   4814.53        0.000330505
   4821.04        0.000171163
   4827.56        0.000196549
   4834.07        0.000292724
   4840.59        0.000352915
   4847.1        0.000308884
   4853.62        0.00023954
   4860.13        0.000202469
   4866.65        0.000217508
   4873.16        0.000340597
   4879.68        0.000492089
   4886.19        0.000424272
   4892.71        0.000261886
   4899.22        0.000212705
   4905.74        0.000225328
   4912.25        0.000272264
   4918.77        0.000254248
   4925.28        0.000187864
   4931.8        0.000184478
   4938.31        0.000236981
   4944.83        0.000316966
   4951.34        0.000351541
   4957.86        0.000304978
   4964.37        0.00028227
   4970.89        0.000286135
   4977.4        0.000287275
   4983.92        0.000363349
   4990.43        0.00036436
   4996.95        0.000242302